DATATYPE	 IR Spectrum
XYUNITS	 Wavenumber;Absorbance
DECIMALSYMBOL	 .
650.4205	 0.1643
652.2841	 0.1673
654.1478	 0.1720
656.0115	 0.1686
657.8751	 0.1639
659.7388	 0.1653
661.6025	 0.1653
663.4661	 0.1653
665.3298	 0.1683
667.1935	 0.1633
669.0571	 0.1507
670.9208	 0.1524
672.7845	 0.1547
674.6481	 0.1544
676.5118	 0.1546
678.3755	 0.1530
680.2392	 0.1508
682.1028	 0.1502
683.9665	 0.1503
685.8302	 0.1508
687.6938	 0.1500
689.5575	 0.1480
691.4212	 0.1481
693.2848	 0.1496
695.1485	 0.1502
697.0122	 0.1480
698.8758	 0.1479
700.7395	 0.1502
702.6032	 0.1511
704.4669	 0.1507
706.3305	 0.1505
708.1942	 0.1500
710.0579	 0.1497
711.9215	 0.1522
713.7852	 0.1547
715.6489	 0.1542
717.5125	 0.1552
719.3762	 0.1560
721.2399	 0.1537
723.1035	 0.1533
724.9672	 0.1545
726.8309	 0.1535
728.6945	 0.1513
730.5582	 0.1501
732.4219	 0.1478
734.2856	 0.1448
736.1492	 0.1435
738.0129	 0.1427
739.8766	 0.1431
741.7402	 0.1439
743.6039	 0.1436
745.4676	 0.1430
747.3312	 0.1424
749.1949	 0.1424
751.0586	 0.1424
752.9222	 0.1413
754.7859	 0.1404
756.6496	 0.1408
758.5132	 0.1413
760.3769	 0.1415
762.2406	 0.1415
764.1043	 0.1412
765.9679	 0.1410
767.8316	 0.1414
769.6953	 0.1413
771.5589	 0.1404
773.4226	 0.1397
775.2863	 0.1399
777.1499	 0.1403
779.0136	 0.1394
780.8773	 0.1381
782.7409	 0.1363
784.6046	 0.1335
786.4683	 0.1313
788.3320	 0.1307
790.1956	 0.1301
792.0593	 0.1292
793.9230	 0.1285
795.7866	 0.1281
797.6503	 0.1281
799.5140	 0.1273
801.3776	 0.1258
803.2413	 0.1254
805.1050	 0.1255
806.9686	 0.1249
808.8323	 0.1238
810.6960	 0.1233
812.5596	 0.1234
814.4233	 0.1237
816.2870	 0.1237
818.1507	 0.1236
820.0143	 0.1234
821.8780	 0.1232
823.7417	 0.1233
825.6053	 0.1236
827.4690	 0.1235
829.3327	 0.1239
831.1963	 0.1245
833.0600	 0.1246
834.9237	 0.1245
836.7873	 0.1249
838.6510	 0.1254
840.5147	 0.1255
842.3784	 0.1256
844.2420	 0.1261
846.1057	 0.1266
847.9694	 0.1264
849.8330	 0.1259
851.6967	 0.1258
853.5604	 0.1262
855.4240	 0.1268
857.2877	 0.1275
859.1514	 0.1278
861.0150	 0.1279
862.8787	 0.1282
864.7424	 0.1291
866.6060	 0.1297
868.4697	 0.1299
870.3334	 0.1304
872.1971	 0.1307
874.0607	 0.1310
875.9244	 0.1316
877.7881	 0.1318
879.6517	 0.1316
881.5154	 0.1319
883.3791	 0.1322
885.2427	 0.1326
887.1064	 0.1334
888.9701	 0.1341
890.8337	 0.1346
892.6974	 0.1347
894.5611	 0.1348
896.4247	 0.1352
898.2884	 0.1356
900.1521	 0.1358
902.0158	 0.1362
903.8794	 0.1366
905.7431	 0.1369
907.6068	 0.1370
909.4704	 0.1378
911.3341	 0.1385
913.1978	 0.1391
915.0614	 0.1403
916.9251	 0.1418
918.7888	 0.1428
920.6524	 0.1438
922.5161	 0.1451
924.3798	 0.1460
926.2435	 0.1463
928.1071	 0.1462
929.9708	 0.1459
931.8345	 0.1455
933.6981	 0.1450
935.5618	 0.1446
937.4255	 0.1443
939.2891	 0.1444
941.1528	 0.1447
943.0165	 0.1450
944.8801	 0.1454
946.7438	 0.1453
948.6075	 0.1441
950.4711	 0.1424
952.3348	 0.1413
954.1985	 0.1409
956.0622	 0.1410
957.9258	 0.1412
959.7895	 0.1413
961.6532	 0.1419
963.5168	 0.1426
965.3805	 0.1431
967.2442	 0.1439
969.1078	 0.1449
970.9715	 0.1459
972.8352	 0.1468
974.6988	 0.1476
976.5625	 0.1484
978.4262	 0.1496
980.2899	 0.1506
982.1535	 0.1517
984.0172	 0.1531
985.8809	 0.1545
987.7445	 0.1560
989.6082	 0.1575
991.4719	 0.1587
993.3355	 0.1596
995.1992	 0.1607
997.0629	 0.1612
998.9265	 0.1611
1000.7902	 0.1611
1002.6539	 0.1605
1004.5175	 0.1597
1006.3812	 0.1592
1008.2449	 0.1587
1010.1086	 0.1583
1011.9722	 0.1581
1013.8359	 0.1582
1015.6996	 0.1585
1017.5632	 0.1586
1019.4269	 0.1585
1021.2906	 0.1588
1023.1542	 0.1593
1025.0179	 0.1597
1026.8816	 0.1600
1028.7452	 0.1603
1030.6089	 0.1603
1032.4726	 0.1600
1034.3362	 0.1593
1036.1999	 0.1585
1038.0636	 0.1575
1039.9273	 0.1564
1041.7909	 0.1553
1043.6546	 0.1543
1045.5183	 0.1533
1047.3819	 0.1526
1049.2456	 0.1520
1051.1093	 0.1517
1052.9729	 0.1519
1054.8366	 0.1519
1056.7003	 0.1520
1058.5639	 0.1522
1060.4276	 0.1521
1062.2913	 0.1519
1064.1550	 0.1515
1066.0186	 0.1510
1067.8823	 0.1505
1069.7460	 0.1499
1071.6096	 0.1495
1073.4733	 0.1493
1075.3370	 0.1490
1077.2006	 0.1490
1079.0643	 0.1492
1080.9280	 0.1497
1082.7916	 0.1500
1084.6553	 0.1500
1086.5190	 0.1498
1088.3826	 0.1494
1090.2463	 0.1490
1092.1100	 0.1489
1093.9737	 0.1489
1095.8373	 0.1488
1097.7010	 0.1487
1099.5647	 0.1485
1101.4283	 0.1484
1103.2920	 0.1486
1105.1557	 0.1488
1107.0193	 0.1488
1108.8830	 0.1489
1110.7467	 0.1491
1112.6103	 0.1489
1114.4740	 0.1480
1116.3377	 0.1465
1118.2014	 0.1451
1120.0650	 0.1440
1121.9287	 0.1434
1123.7924	 0.1431
1125.6560	 0.1431
1127.5197	 0.1436
1129.3834	 0.1445
1131.2470	 0.1457
1133.1107	 0.1471
1134.9744	 0.1484
1136.8380	 0.1498
1138.7017	 0.1510
1140.5654	 0.1520
1142.4290	 0.1528
1144.2927	 0.1532
1146.1564	 0.1536
1148.0201	 0.1537
1149.8837	 0.1539
1151.7474	 0.1541
1153.6111	 0.1542
1155.4747	 0.1543
1157.3384	 0.1544
1159.2021	 0.1545
1161.0657	 0.1546
1162.9294	 0.1543
1164.7931	 0.1535
1166.6567	 0.1529
1168.5204	 0.1521
1170.3841	 0.1508
1172.2477	 0.1496
1174.1114	 0.1484
1175.9751	 0.1469
1177.8388	 0.1454
1179.7024	 0.1439
1181.5661	 0.1423
1183.4298	 0.1408
1185.2934	 0.1397
1187.1571	 0.1385
1189.0208	 0.1374
1190.8844	 0.1364
1192.7481	 0.1355
1194.6118	 0.1344
1196.4754	 0.1334
1198.3391	 0.1327
1200.2028	 0.1320
1202.0665	 0.1315
1203.9301	 0.1311
1205.7938	 0.1309
1207.6575	 0.1308
1209.5211	 0.1308
1211.3848	 0.1310
1213.2485	 0.1312
1215.1121	 0.1317
1216.9758	 0.1321
1218.8395	 0.1326
1220.7031	 0.1333
1222.5668	 0.1339
1224.4305	 0.1344
1226.2941	 0.1352
1228.1578	 0.1360
1230.0215	 0.1366
1231.8852	 0.1368
1233.7488	 0.1365
1235.6125	 0.1360
1237.4762	 0.1353
1239.3398	 0.1348
1241.2035	 0.1344
1243.0672	 0.1342
1244.9308	 0.1340
1246.7945	 0.1337
1248.6582	 0.1329
1250.5218	 0.1318
1252.3855	 0.1305
1254.2492	 0.1287
1256.1129	 0.1265
1257.9765	 0.1239
1259.8402	 0.1212
1261.7039	 0.1185
1263.5675	 0.1158
1265.4312	 0.1131
1267.2949	 0.1106
1269.1585	 0.1081
1271.0222	 0.1057
1272.8859	 0.1038
1274.7495	 0.1021
1276.6132	 0.1007
1278.4769	 0.0996
1280.3405	 0.0986
1282.2042	 0.0978
1284.0679	 0.0973
1285.9316	 0.0970
1287.7952	 0.0965
1289.6589	 0.0957
1291.5226	 0.0948
1293.3862	 0.0937
1295.2499	 0.0922
1297.1136	 0.0904
1298.9772	 0.0888
1300.8409	 0.0876
1302.7046	 0.0865
1304.5682	 0.0854
1306.4319	 0.0843
1308.2956	 0.0832
1310.1592	 0.0826
1312.0229	 0.0821
1313.8866	 0.0814
1315.7503	 0.0809
1317.6139	 0.0805
1319.4776	 0.0800
1321.3413	 0.0793
1323.2049	 0.0787
1325.0686	 0.0780
1326.9323	 0.0774
1328.7959	 0.0769
1330.6596	 0.0764
1332.5233	 0.0761
1334.3869	 0.0764
1336.2506	 0.0772
1338.1143	 0.0777
1339.9780	 0.0773
1341.8416	 0.0772
1343.7053	 0.0779
1345.5690	 0.0786
1347.4326	 0.0792
1349.2963	 0.0799
1351.1600	 0.0804
1353.0236	 0.0806
1354.8873	 0.0808
1356.7510	 0.0812
1358.6146	 0.0821
1360.4783	 0.0830
1362.3420	 0.0826
1364.2056	 0.0818
1366.0693	 0.0830
1367.9330	 0.0838
1369.7967	 0.0839
1371.6603	 0.0851
1373.5240	 0.0853
1375.3877	 0.0838
1377.2513	 0.0835
1379.1150	 0.0831
1380.9787	 0.0821
1382.8423	 0.0814
1384.7060	 0.0817
1386.5697	 0.0810
1388.4333	 0.0778
1390.2970	 0.0769
1392.1607	 0.0777
1394.0244	 0.0773
1395.8880	 0.0755
1397.7517	 0.0754
1399.6154	 0.0741
1401.4790	 0.0736
1403.3427	 0.0750
1405.2064	 0.0751
1407.0700	 0.0752
1408.9337	 0.0757
1410.7974	 0.0756
1412.6610	 0.0754
1414.5247	 0.0760
1416.3884	 0.0775
1418.2520	 0.0762
1420.1157	 0.0706
1421.9794	 0.0700
1423.8431	 0.0701
1425.7067	 0.0689
1427.5704	 0.0693
1429.4341	 0.0691
1431.2977	 0.0685
1433.1614	 0.0697
1435.0251	 0.0717
1436.8887	 0.0693
1438.7524	 0.0674
1440.6161	 0.0690
1442.4797	 0.0702
1444.3434	 0.0714
1446.2071	 0.0724
1448.0707	 0.0715
1449.9344	 0.0707
1451.7981	 0.0723
1453.6618	 0.0754
1455.5254	 0.0785
1457.3891	 0.0735
1459.2528	 0.0695
1461.1164	 0.0725
1462.9801	 0.0753
1464.8438	 0.0729
1466.7074	 0.0686
1468.5711	 0.0672
1470.4348	 0.0664
1472.2984	 0.0625
1474.1621	 0.0560
1476.0258	 0.0517
1477.8895	 0.0486
1479.7531	 0.0467
1481.6168	 0.0446
1483.4805	 0.0429
1485.3441	 0.0422
1487.2078	 0.0416
1489.0715	 0.0405
1490.9351	 0.0382
1492.7988	 0.0382
1494.6625	 0.0398
1496.5261	 0.0394
1498.3898	 0.0381
1500.2535	 0.0381
1502.1171	 0.0393
1503.9808	 0.0423
1505.8445	 0.0435
1507.7082	 0.0389
1509.5718	 0.0384
1511.4355	 0.0396
1513.2992	 0.0406
1515.1628	 0.0423
1517.0265	 0.0425
1518.8902	 0.0434
1520.7538	 0.0439
1522.6175	 0.0416
1524.4812	 0.0420
1526.3448	 0.0424
1528.2085	 0.0421
1530.0722	 0.0434
1531.9359	 0.0454
1533.7995	 0.0444
1535.6632	 0.0449
1537.5269	 0.0487
1539.3905	 0.0493
1541.2542	 0.0452
1543.1179	 0.0441
1544.9815	 0.0439
1546.8452	 0.0447
1548.7089	 0.0467
1550.5725	 0.0471
1552.4362	 0.0480
1554.2999	 0.0491
1556.1635	 0.0519
1558.0272	 0.0539
1559.8909	 0.0452
1561.7546	 0.0443
1563.6182	 0.0477
1565.4819	 0.0492
1567.3456	 0.0510
1569.2092	 0.0509
1571.0729	 0.0493
1572.9366	 0.0516
1574.8002	 0.0543
1576.6639	 0.0518
1578.5276	 0.0507
1580.3912	 0.0529
1582.2549	 0.0540
1584.1186	 0.0545
1585.9822	 0.0549
1587.8459	 0.0557
1589.7096	 0.0567
1591.5733	 0.0577
1593.4369	 0.0586
1595.3006	 0.0587
1597.1643	 0.0587
1599.0279	 0.0592
1600.8916	 0.0602
1602.7553	 0.0612
1604.6189	 0.0621
1606.4826	 0.0633
1608.3463	 0.0636
1610.2099	 0.0638
1612.0736	 0.0652
1613.9373	 0.0682
1615.8010	 0.0696
1617.6646	 0.0658
1619.5283	 0.0672
1621.3920	 0.0713
1623.2556	 0.0717
1625.1193	 0.0707
1626.9830	 0.0721
1628.8466	 0.0725
1630.7103	 0.0736
1632.5740	 0.0772
1634.4376	 0.0798
1636.3013	 0.0738
1638.1650	 0.0708
1640.0286	 0.0727
1641.8923	 0.0744
1643.7560	 0.0768
1645.6197	 0.0777
1647.4833	 0.0726
1649.3470	 0.0739
1651.2107	 0.0806
1653.0743	 0.0767
1654.9380	 0.0678
1656.8017	 0.0719
1658.6653	 0.0757
1660.5290	 0.0787
1662.3927	 0.0790
1664.2563	 0.0785
1666.1200	 0.0821
1667.9837	 0.0857
1669.8474	 0.0846
1671.7110	 0.0858
1673.5747	 0.0904
1675.4384	 0.0908
1677.3020	 0.0922
1679.1657	 0.0989
1681.0294	 0.1060
1682.8930	 0.1118
1684.7567	 0.1047
1686.6204	 0.1040
1688.4840	 0.1103
1690.3477	 0.1138
1692.2114	 0.1191
1694.0750	 0.1259
1695.9387	 0.1256
1697.8024	 0.1273
1699.6661	 0.1289
1701.5297	 0.1217
1703.3934	 0.1271
1705.2571	 0.1303
1707.1207	 0.1282
1708.9844	 0.1287
1710.8481	 0.1301
1712.7117	 0.1317
1714.5754	 0.1323
1716.4391	 0.1287
1718.3027	 0.1182
1720.1664	 0.1134
1722.0301	 0.1148
1723.8937	 0.1139
1725.7574	 0.1122
1727.6211	 0.1115
1729.4848	 0.1111
1731.3484	 0.1115
1733.2121	 0.1087
1735.0758	 0.0970
1736.9394	 0.0936
1738.8031	 0.0916
1740.6668	 0.0841
1742.5304	 0.0770
1744.3941	 0.0710
1746.2578	 0.0657
1748.1214	 0.0609
1749.9851	 0.0552
1751.8488	 0.0490
1753.7125	 0.0449
1755.5761	 0.0428
1757.4398	 0.0403
1759.3035	 0.0389
1761.1671	 0.0371
1763.0308	 0.0348
1764.8945	 0.0339
1766.7581	 0.0338
1768.6218	 0.0330
1770.4855	 0.0327
1772.3491	 0.0317
1774.2128	 0.0301
1776.0765	 0.0291
1777.9401	 0.0289
1779.8038	 0.0284
1781.6675	 0.0275
1783.5312	 0.0265
1785.3948	 0.0254
1787.2585	 0.0243
1789.1222	 0.0241
1790.9858	 0.0239
1792.8495	 0.0227
1794.7132	 0.0212
1796.5768	 0.0207
1798.4405	 0.0205
1800.3042	 0.0200
1802.1678	 0.0191
1804.0315	 0.0184
1805.8952	 0.0181
1807.7589	 0.0181
1809.6225	 0.0177
1811.4862	 0.0175
1813.3499	 0.0170
1815.2135	 0.0167
1817.0772	 0.0167
1818.9409	 0.0165
1820.8045	 0.0165
1822.6682	 0.0170
1824.5319	 0.0170
1826.3955	 0.0172
1828.2592	 0.0176
1830.1229	 0.0171
1831.9865	 0.0165
1833.8502	 0.0165
1835.7139	 0.0166
1837.5776	 0.0168
1839.4412	 0.0168
1841.3049	 0.0174
1843.1686	 0.0179
1845.0322	 0.0174
1846.8959	 0.0167
1848.7596	 0.0168
1850.6232	 0.0169
1852.4869	 0.0172
1854.3506	 0.0176
1856.2142	 0.0175
1858.0779	 0.0173
1859.9416	 0.0174
1861.8052	 0.0176
1863.6689	 0.0180
1865.5326	 0.0183
1867.3963	 0.0186
1869.2599	 0.0180
1871.1236	 0.0176
1872.9873	 0.0173
1874.8509	 0.0174
1876.7146	 0.0176
1878.5783	 0.0178
1880.4419	 0.0178
1882.3056	 0.0183
1884.1693	 0.0189
1886.0329	 0.0187
1887.8966	 0.0187
1889.7603	 0.0184
1891.6240	 0.0180
1893.4876	 0.0184
1895.3513	 0.0187
1897.2150	 0.0187
1899.0786	 0.0188
1900.9423	 0.0189
1902.8060	 0.0187
1904.6696	 0.0189
1906.5333	 0.0192
1908.3970	 0.0195
1910.2606	 0.0190
1912.1243	 0.0192
1913.9880	 0.0194
1915.8516	 0.0195
1917.7153	 0.0197
1919.5790	 0.0194
1921.4427	 0.0192
1923.3063	 0.0191
1925.1700	 0.0191
1927.0337	 0.0190
1928.8973	 0.0189
1930.7610	 0.0194
1932.6247	 0.0197
1934.4883	 0.0199
1936.3520	 0.0199
1938.2157	 0.0202
1940.0793	 0.0201
1941.9430	 0.0196
1943.8067	 0.0197
1945.6704	 0.0203
1947.5340	 0.0198
1949.3977	 0.0195
1951.2614	 0.0198
1953.1250	 0.0197
1954.9887	 0.0193
1956.8524	 0.0193
1958.7160	 0.0193
1960.5797	 0.0193
1962.4434	 0.0194
1964.3070	 0.0200
1966.1707	 0.0203
1968.0344	 0.0197
1969.8980	 0.0193
1971.7617	 0.0194
1973.6254	 0.0197
1975.4891	 0.0199
1977.3527	 0.0202
1979.2164	 0.0196
1981.0801	 0.0186
1982.9437	 0.0186
1984.8074	 0.0188
1986.6711	 0.0193
1988.5347	 0.0201
1990.3984	 0.0201
1992.2621	 0.0195
1994.1257	 0.0195
1995.9894	 0.0200
1997.8531	 0.0195
1999.7167	 0.0185
2001.5804	 0.0189
2003.4441	 0.0202
2005.3078	 0.0202
2007.1714	 0.0196
2009.0351	 0.0193
2010.8988	 0.0189
2012.7624	 0.0189
2014.6261	 0.0192
2016.4898	 0.0205
2018.3534	 0.0205
2020.2171	 0.0197
2022.0808	 0.0200
2023.9444	 0.0207
2025.8081	 0.0199
2027.6718	 0.0197
2029.5355	 0.0202
2031.3991	 0.0208
2033.2628	 0.0203
2035.1265	 0.0191
2036.9901	 0.0187
2038.8538	 0.0194
2040.7175	 0.0191
2042.5811	 0.0187
2044.4448	 0.0193
2046.3085	 0.0192
2048.1721	 0.0193
2050.0358	 0.0196
2051.8995	 0.0199
2053.7631	 0.0199
2055.6268	 0.0195
2057.4905	 0.0197
2059.3542	 0.0195
2061.2178	 0.0199
2063.0815	 0.0198
2064.9452	 0.0196
2066.8088	 0.0196
2068.6725	 0.0193
2070.5362	 0.0193
2072.3998	 0.0200
2074.2635	 0.0197
2076.1272	 0.0194
2077.9908	 0.0199
2079.8545	 0.0198
2081.7182	 0.0194
2083.5819	 0.0195
2085.4455	 0.0196
2087.3092	 0.0196
2089.1729	 0.0198
2091.0365	 0.0197
2092.9002	 0.0198
2094.7639	 0.0199
2096.6275	 0.0198
2098.4912	 0.0198
2100.3549	 0.0193
2102.2185	 0.0189
2104.0822	 0.0192
2105.9459	 0.0195
2107.8095	 0.0194
2109.6732	 0.0190
2111.5369	 0.0192
2113.4006	 0.0202
2115.2642	 0.0202
2117.1279	 0.0193
2118.9916	 0.0192
2120.8552	 0.0194
2122.7189	 0.0191
2124.5826	 0.0192
2126.4462	 0.0195
2128.3099	 0.0196
2130.1736	 0.0196
2132.0372	 0.0199
2133.9009	 0.0197
2135.7646	 0.0192
2137.6282	 0.0196
2139.4919	 0.0200
2141.3556	 0.0197
2143.2193	 0.0195
2145.0829	 0.0192
2146.9466	 0.0194
2148.8103	 0.0195
2150.6739	 0.0189
2152.5376	 0.0189
2154.4013	 0.0191
2156.2649	 0.0188
2158.1286	 0.0187
2159.9923	 0.0195
2161.8559	 0.0198
2163.7196	 0.0187
2165.5833	 0.0189
2167.4470	 0.0194
2169.3106	 0.0200
2171.1743	 0.0196
2173.0380	 0.0187
2174.9016	 0.0191
2176.7653	 0.0194
2178.6290	 0.0192
2180.4926	 0.0196
2182.3563	 0.0188
2184.2200	 0.0180
2186.0836	 0.0191
2187.9473	 0.0197
2189.8110	 0.0197
2191.6746	 0.0201
2193.5383	 0.0201
2195.4020	 0.0194
2197.2657	 0.0198
2199.1293	 0.0202
2200.9930	 0.0192
2202.8567	 0.0194
2204.7203	 0.0199
2206.5840	 0.0202
2208.4477	 0.0201
2210.3113	 0.0199
2212.1750	 0.0196
2214.0387	 0.0195
2215.9023	 0.0200
2217.7660	 0.0198
2219.6297	 0.0193
2221.4934	 0.0197
2223.3570	 0.0206
2225.2207	 0.0205
2227.0844	 0.0197
2228.9480	 0.0195
2230.8117	 0.0197
2232.6754	 0.0203
2234.5390	 0.0201
2236.4027	 0.0198
2238.2664	 0.0195
2240.1300	 0.0192
2241.9937	 0.0200
2243.8574	 0.0207
2245.7210	 0.0205
2247.5847	 0.0201
2249.4484	 0.0200
2251.3121	 0.0207
2253.1757	 0.0203
2255.0394	 0.0199
2256.9031	 0.0202
2258.7667	 0.0205
2260.6304	 0.0206
2262.4941	 0.0203
2264.3577	 0.0200
2266.2214	 0.0199
2268.0851	 0.0202
2269.9487	 0.0202
2271.8124	 0.0198
2273.6761	 0.0199
2275.5397	 0.0204
2277.4034	 0.0204
2279.2671	 0.0201
2281.1308	 0.0205
2282.9944	 0.0209
2284.8581	 0.0207
2286.7218	 0.0205
2288.5854	 0.0206
2290.4491	 0.0206
2292.3128	 0.0205
2294.1764	 0.0207
2296.0401	 0.0211
2297.9038	 0.0212
2299.7674	 0.0211
2301.6311	 0.0209
2303.4948	 0.0210
2305.3585	 0.0210
2307.2221	 0.0210
2309.0858	 0.0212
2310.9495	 0.0212
2312.8131	 0.0210
2314.6768	 0.0212
2316.5405	 0.0215
2318.4041	 0.0215
2320.2678	 0.0216
2322.1315	 0.0217
2323.9951	 0.0217
2325.8588	 0.0216
2327.7225	 0.0216
2329.5861	 0.0220
2331.4498	 0.0220
2333.3135	 0.0215
2335.1772	 0.0213
2337.0408	 0.0215
2338.9045	 0.0217
2340.7682	 0.0215
2342.6318	 0.0211
2344.4955	 0.0209
2346.3592	 0.0209
2348.2228	 0.0211
2350.0865	 0.0221
2351.9502	 0.0232
2353.8138	 0.0230
2355.6775	 0.0225
2357.5412	 0.0227
2359.4049	 0.0228
2361.2685	 0.0225
2363.1322	 0.0224
2364.9959	 0.0220
2366.8595	 0.0219
2368.7232	 0.0217
2370.5869	 0.0217
2372.4505	 0.0218
2374.3142	 0.0220
2376.1779	 0.0221
2378.0415	 0.0220
2379.9052	 0.0217
2381.7689	 0.0221
2383.6325	 0.0225
2385.4962	 0.0226
2387.3599	 0.0229
2389.2236	 0.0231
2391.0872	 0.0231
2392.9509	 0.0230
2394.8146	 0.0230
2396.6782	 0.0230
2398.5419	 0.0226
2400.4056	 0.0228
2402.2692	 0.0232
2404.1329	 0.0230
2405.9966	 0.0230
2407.8602	 0.0233
2409.7239	 0.0230
2411.5876	 0.0231
2413.4512	 0.0234
2415.3149	 0.0235
2417.1786	 0.0233
2419.0423	 0.0232
2420.9059	 0.0236
2422.7696	 0.0237
2424.6333	 0.0237
2426.4969	 0.0239
2428.3606	 0.0240
2430.2243	 0.0240
2432.0879	 0.0238
2433.9516	 0.0240
2435.8153	 0.0243
2437.6789	 0.0240
2439.5426	 0.0240
2441.4063	 0.0246
2443.2700	 0.0247
2445.1336	 0.0243
2446.9973	 0.0243
2448.8610	 0.0244
2450.7246	 0.0244
2452.5883	 0.0245
2454.4520	 0.0244
2456.3156	 0.0244
2458.1793	 0.0250
2460.0430	 0.0254
2461.9066	 0.0255
2463.7703	 0.0255
2465.6340	 0.0254
2467.4976	 0.0254
2469.3613	 0.0252
2471.2250	 0.0250
2473.0887	 0.0255
2474.9523	 0.0253
2476.8160	 0.0255
2478.6797	 0.0261
2480.5433	 0.0261
2482.4070	 0.0260
2484.2707	 0.0259
2486.1343	 0.0258
2487.9980	 0.0260
2489.8617	 0.0259
2491.7253	 0.0258
2493.5890	 0.0261
2495.4527	 0.0261
2497.3164	 0.0257
2499.1800	 0.0259
2501.0437	 0.0263
2502.9074	 0.0261
2504.7710	 0.0260
2506.6347	 0.0261
2508.4984	 0.0262
2510.3620	 0.0261
2512.2257	 0.0261
2514.0894	 0.0263
2515.9530	 0.0265
2517.8167	 0.0268
2519.6804	 0.0268
2521.5440	 0.0269
2523.4077	 0.0272
2525.2714	 0.0271
2527.1351	 0.0266
2528.9987	 0.0263
2530.8624	 0.0265
2532.7261	 0.0269
2534.5897	 0.0272
2536.4534	 0.0271
2538.3171	 0.0270
2540.1807	 0.0272
2542.0444	 0.0275
2543.9081	 0.0274
2545.7717	 0.0275
2547.6354	 0.0280
2549.4991	 0.0277
2551.3627	 0.0273
2553.2264	 0.0276
2555.0901	 0.0276
2556.9538	 0.0276
2558.8174	 0.0275
2560.6811	 0.0276
2562.5448	 0.0282
2564.4084	 0.0286
2566.2721	 0.0285
2568.1358	 0.0281
2569.9994	 0.0280
2571.8631	 0.0279
2573.7268	 0.0279
2575.5904	 0.0281
2577.4541	 0.0282
2579.3178	 0.0281
2581.1815	 0.0282
2583.0451	 0.0284
2584.9088	 0.0284
2586.7725	 0.0284
2588.6361	 0.0283
2590.4998	 0.0282
2592.3635	 0.0283
2594.2271	 0.0280
2596.0908	 0.0279
2597.9545	 0.0284
2599.8181	 0.0287
2601.6818	 0.0288
2603.5455	 0.0289
2605.4091	 0.0288
2607.2728	 0.0286
2609.1365	 0.0285
2611.0002	 0.0283
2612.8638	 0.0282
2614.7275	 0.0286
2616.5912	 0.0288
2618.4548	 0.0285
2620.3185	 0.0284
2622.1822	 0.0285
2624.0458	 0.0286
2625.9095	 0.0287
2627.7732	 0.0287
2629.6368	 0.0288
2631.5005	 0.0289
2633.3642	 0.0288
2635.2279	 0.0288
2637.0915	 0.0289
2638.9552	 0.0288
2640.8189	 0.0288
2642.6825	 0.0287
2644.5462	 0.0285
2646.4099	 0.0285
2648.2735	 0.0288
2650.1372	 0.0288
2652.0009	 0.0288
2653.8645	 0.0288
2655.7282	 0.0288
2657.5919	 0.0286
2659.4555	 0.0287
2661.3192	 0.0289
2663.1829	 0.0290
2665.0466	 0.0293
2666.9102	 0.0293
2668.7739	 0.0291
2670.6376	 0.0289
2672.5012	 0.0290
2674.3649	 0.0290
2676.2286	 0.0290
2678.0922	 0.0292
2679.9559	 0.0292
2681.8196	 0.0291
2683.6832	 0.0291
2685.5469	 0.0292
2687.4106	 0.0293
2689.2742	 0.0294
2691.1379	 0.0294
2693.0016	 0.0294
2694.8653	 0.0294
2696.7289	 0.0293
2698.5926	 0.0295
2700.4563	 0.0299
2702.3199	 0.0297
2704.1836	 0.0295
2706.0473	 0.0297
2707.9109	 0.0299
2709.7746	 0.0298
2711.6383	 0.0298
2713.5019	 0.0299
2715.3656	 0.0299
2717.2293	 0.0299
2719.0930	 0.0301
2720.9566	 0.0305
2722.8203	 0.0307
2724.6840	 0.0308
2726.5476	 0.0308
2728.4113	 0.0310
2730.2750	 0.0310
2732.1386	 0.0311
2734.0023	 0.0315
2735.8660	 0.0316
2737.7296	 0.0314
2739.5933	 0.0314
2741.4570	 0.0316
2743.3206	 0.0319
2745.1843	 0.0321
2747.0480	 0.0321
2748.9117	 0.0320
2750.7753	 0.0319
2752.6390	 0.0321
2754.5027	 0.0324
2756.3663	 0.0325
2758.2300	 0.0327
2760.0937	 0.0330
2761.9573	 0.0330
2763.8210	 0.0329
2765.6847	 0.0330
2767.5483	 0.0334
2769.4120	 0.0338
2771.2757	 0.0336
2773.1394	 0.0336
2775.0030	 0.0338
2776.8667	 0.0341
2778.7304	 0.0346
2780.5940	 0.0348
2782.4577	 0.0347
2784.3214	 0.0350
2786.1850	 0.0353
2788.0487	 0.0355
2789.9124	 0.0357
2791.7760	 0.0358
2793.6397	 0.0363
2795.5034	 0.0368
2797.3670	 0.0370
2799.2307	 0.0376
2801.0944	 0.0379
2802.9581	 0.0378
2804.8217	 0.0382
2806.6854	 0.0389
2808.5491	 0.0392
2810.4127	 0.0395
2812.2764	 0.0399
2814.1401	 0.0406
2816.0037	 0.0414
2817.8674	 0.0416
2819.7311	 0.0418
2821.5947	 0.0426
2823.4584	 0.0433
2825.3221	 0.0439
2827.1857	 0.0448
2829.0494	 0.0458
2830.9131	 0.0470
2832.7768	 0.0478
2834.6404	 0.0487
2836.5041	 0.0500
2838.3678	 0.0518
2840.2314	 0.0545
2842.0951	 0.0582
2843.9588	 0.0624
2845.8224	 0.0674
2847.6861	 0.0730
2849.5498	 0.0774
2851.4134	 0.0790
2853.2771	 0.0780
2855.1408	 0.0753
2857.0045	 0.0731
2858.8681	 0.0718
2860.7318	 0.0702
2862.5955	 0.0685
2864.4591	 0.0672
2866.3228	 0.0655
2868.1865	 0.0638
2870.0501	 0.0627
2871.9138	 0.0621
2873.7775	 0.0616
2875.6411	 0.0607
2877.5048	 0.0600
2879.3685	 0.0596
2881.2321	 0.0591
2883.0958	 0.0592
2884.9595	 0.0600
2886.8232	 0.0609
2888.6868	 0.0614
2890.5505	 0.0616
2892.4142	 0.0626
2894.2778	 0.0641
2896.1415	 0.0652
2898.0052	 0.0666
2899.8688	 0.0681
2901.7325	 0.0693
2903.5962	 0.0706
2905.4598	 0.0725
2907.3235	 0.0741
2909.1872	 0.0759
2911.0509	 0.0788
2912.9145	 0.0823
2914.7782	 0.0860
2916.6419	 0.0894
2918.5055	 0.0917
2920.3692	 0.0924
2922.2329	 0.0916
2924.0965	 0.0902
2925.9602	 0.0888
2927.8239	 0.0868
2929.6875	 0.0845
2931.5512	 0.0826
2933.4149	 0.0809
2935.2785	 0.0786
2937.1422	 0.0761
2939.0059	 0.0742
2940.8696	 0.0726
2942.7332	 0.0703
2944.5969	 0.0679
2946.4606	 0.0660
2948.3242	 0.0644
2950.1879	 0.0633
2952.0516	 0.0619
2953.9152	 0.0602
2955.7789	 0.0589
2957.6426	 0.0576
2959.5062	 0.0561
2961.3699	 0.0543
2963.2336	 0.0527
2965.0972	 0.0510
2966.9609	 0.0490
2968.8246	 0.0477
2970.6883	 0.0465
2972.5519	 0.0449
2974.4156	 0.0431
2976.2793	 0.0415
2978.1429	 0.0402
2980.0066	 0.0392
2981.8703	 0.0380
2983.7339	 0.0366
2985.5976	 0.0354
2987.4613	 0.0344
2989.3249	 0.0337
2991.1886	 0.0331
2993.0523	 0.0326
2994.9160	 0.0322
2996.7796	 0.0319
2998.6433	 0.0314
3000.5070	 0.0305
3002.3706	 0.0297
3004.2343	 0.0296
3006.0980	 0.0296
3007.9616	 0.0294
3009.8253	 0.0293
3011.6890	 0.0291
3013.5526	 0.0286
3015.4163	 0.0286
3017.2800	 0.0287
3019.1436	 0.0290
3021.0073	 0.0290
3022.8710	 0.0290
3024.7347	 0.0288
3026.5983	 0.0288
3028.4620	 0.0291
3030.3257	 0.0290
3032.1893	 0.0289
3034.0530	 0.0294
3035.9167	 0.0297
3037.7803	 0.0297
3039.6440	 0.0293
3041.5077	 0.0289
3043.3713	 0.0291
3045.2350	 0.0291
3047.0987	 0.0293
3048.9624	 0.0296
3050.8260	 0.0298
3052.6897	 0.0301
3054.5534	 0.0302
3056.4170	 0.0298
3058.2807	 0.0297
3060.1444	 0.0303
3062.0080	 0.0304
3063.8717	 0.0300
3065.7354	 0.0299
3067.5990	 0.0302
3069.4627	 0.0301
3071.3264	 0.0298
3073.1900	 0.0301
3075.0537	 0.0301
3076.9174	 0.0300
3078.7811	 0.0300
3080.6447	 0.0303
3082.5084	 0.0303
3084.3721	 0.0305
3086.2357	 0.0305
3088.0994	 0.0303
3089.9631	 0.0303
3091.8267	 0.0305
3093.6904	 0.0308
3095.5541	 0.0308
3097.4177	 0.0302
3099.2814	 0.0296
3101.1451	 0.0298
3103.0087	 0.0304
3104.8724	 0.0306
3106.7361	 0.0307
3108.5998	 0.0309
3110.4634	 0.0308
3112.3271	 0.0309
3114.1908	 0.0310
3116.0544	 0.0310
3117.9181	 0.0310
3119.7818	 0.0307
3121.6454	 0.0307
3123.5091	 0.0306
3125.3728	 0.0307
3127.2364	 0.0312
3129.1001	 0.0314
3130.9638	 0.0313
3132.8275	 0.0314
3134.6911	 0.0318
3136.5548	 0.0318
3138.4185	 0.0317
3140.2821	 0.0320
3142.1458	 0.0323
3144.0095	 0.0324
3145.8731	 0.0325
3147.7368	 0.0327
3149.6005	 0.0325
3151.4641	 0.0320
3153.3278	 0.0318
3155.1915	 0.0321
3157.0551	 0.0324
3158.9188	 0.0325
3160.7825	 0.0326
3162.6462	 0.0326
3164.5098	 0.0326
3166.3735	 0.0323
3168.2372	 0.0324
3170.1008	 0.0332
3171.9645	 0.0338
3173.8282	 0.0338
3175.6918	 0.0336
3177.5555	 0.0332
3179.4192	 0.0331
3181.2828	 0.0336
3183.1465	 0.0337
3185.0102	 0.0339
3186.8739	 0.0341
3188.7375	 0.0338
3190.6012	 0.0339
3192.4649	 0.0339
3194.3285	 0.0339
3196.1922	 0.0342
3198.0559	 0.0344
3199.9195	 0.0344
3201.7832	 0.0342
3203.6469	 0.0344
3205.5105	 0.0349
3207.3742	 0.0346
3209.2379	 0.0346
3211.1015	 0.0348
3212.9652	 0.0346
3214.8289	 0.0346
3216.6926	 0.0356
3218.5562	 0.0356
3220.4199	 0.0353
3222.2836	 0.0352
3224.1472	 0.0345
3226.0109	 0.0345
3227.8746	 0.0353
3229.7382	 0.0357
3231.6019	 0.0356
3233.4656	 0.0356
3235.3292	 0.0359
3237.1929	 0.0355
3239.0566	 0.0353
3240.9202	 0.0357
3242.7839	 0.0358
3244.6476	 0.0356
3246.5113	 0.0359
3248.3749	 0.0355
3250.2386	 0.0348
3252.1023	 0.0357
3253.9659	 0.0365
3255.8296	 0.0357
3257.6933	 0.0353
3259.5569	 0.0356
3261.4206	 0.0356
3263.2843	 0.0360
3265.1479	 0.0367
3267.0116	 0.0368
3268.8753	 0.0361
3270.7390	 0.0357
3272.6026	 0.0359
3274.4663	 0.0357
3276.3300	 0.0360
3278.1936	 0.0359
3280.0573	 0.0350
3281.9210	 0.0352
3283.7846	 0.0359
3285.6483	 0.0362
3287.5120	 0.0366
3289.3756	 0.0367
3291.2393	 0.0365
3293.1030	 0.0363
3294.9666	 0.0361
3296.8303	 0.0359
3298.6940	 0.0358
3300.5577	 0.0359
3302.4213	 0.0366
3304.2850	 0.0369
3306.1487	 0.0365
3308.0123	 0.0367
3309.8760	 0.0369
3311.7397	 0.0365
3313.6033	 0.0363
3315.4670	 0.0363
3317.3307	 0.0361
3319.1943	 0.0358
3321.0580	 0.0365
3322.9217	 0.0370
3324.7854	 0.0361
3326.6490	 0.0362
3328.5127	 0.0367
3330.3764	 0.0370
3332.2400	 0.0372
3334.1037	 0.0370
3335.9674	 0.0360
3337.8310	 0.0355
3339.6947	 0.0365
3341.5584	 0.0369
3343.4220	 0.0366
3345.2857	 0.0369
3347.1494	 0.0369
3349.0130	 0.0367
3350.8767	 0.0364
3352.7404	 0.0364
3354.6041	 0.0364
3356.4677	 0.0362
3358.3314	 0.0365
3360.1951	 0.0371
3362.0587	 0.0367
3363.9224	 0.0357
3365.7861	 0.0359
3367.6497	 0.0369
3369.5134	 0.0373
3371.3771	 0.0370
3373.2407	 0.0371
3375.1044	 0.0367
3376.9681	 0.0351
3378.8317	 0.0350
3380.6954	 0.0363
3382.5591	 0.0369
3384.4228	 0.0368
3386.2864	 0.0362
3388.1501	 0.0365
3390.0138	 0.0369
3391.8774	 0.0357
3393.7411	 0.0355
3395.6048	 0.0368
3397.4684	 0.0368
3399.3321	 0.0364
3401.1958	 0.0367
3403.0594	 0.0364
3404.9231	 0.0358
3406.7868	 0.0364
3408.6505	 0.0373
3410.5141	 0.0367
3412.3778	 0.0354
3414.2415	 0.0346
3416.1051	 0.0348
3417.9688	 0.0353
3419.8325	 0.0351
3421.6961	 0.0349
3423.5598	 0.0351
3425.4235	 0.0344
3427.2871	 0.0342
3429.1508	 0.0345
3431.0145	 0.0338
3432.8781	 0.0337
3434.7418	 0.0342
3436.6055	 0.0338
3438.4692	 0.0340
3440.3328	 0.0343
3442.1965	 0.0342
3444.0602	 0.0343
3445.9238	 0.0337
3447.7875	 0.0326
3449.6512	 0.0329
3451.5148	 0.0340
3453.3785	 0.0331
3455.2422	 0.0319
3457.1058	 0.0327
3458.9695	 0.0331
3460.8332	 0.0336
3462.6969	 0.0338
3464.5605	 0.0328
3466.4242	 0.0328
3468.2879	 0.0328
3470.1515	 0.0322
3472.0152	 0.0321
3473.8789	 0.0317
3475.7425	 0.0319
3477.6062	 0.0316
3479.4699	 0.0313
3481.3335	 0.0317
3483.1972	 0.0324
3485.0609	 0.0312
3486.9245	 0.0301
3488.7882	 0.0302
3490.6519	 0.0305
3492.5156	 0.0304
3494.3792	 0.0298
3496.2429	 0.0295
3498.1066	 0.0296
3499.9702	 0.0295
3501.8339	 0.0296
3503.6976	 0.0291
3505.5612	 0.0277
3507.4249	 0.0275
3509.2886	 0.0285
3511.1522	 0.0286
3513.0159	 0.0288
3514.8796	 0.0289
3516.7432	 0.0276
3518.6069	 0.0269
3520.4706	 0.0267
3522.3343	 0.0264
3524.1979	 0.0268
3526.0616	 0.0265
3527.9253	 0.0264
3529.7889	 0.0261
3531.6526	 0.0259
3533.5163	 0.0256
3535.3799	 0.0241
3537.2436	 0.0244
3539.1073	 0.0254
3540.9709	 0.0250
3542.8346	 0.0246
3544.6983	 0.0241
3546.5620	 0.0236
3548.4256	 0.0231
3550.2893	 0.0237
3552.1530	 0.0235
3554.0166	 0.0225
3555.8803	 0.0219
3557.7440	 0.0221
3559.6076	 0.0222
3561.4713	 0.0217
3563.3350	 0.0213
3565.1986	 0.0215
3567.0623	 0.0214
3568.9260	 0.0202
3570.7896	 0.0193
3572.6533	 0.0192
3574.5170	 0.0183
3576.3807	 0.0180
3578.2443	 0.0179
3580.1080	 0.0192
3581.9717	 0.0189
3583.8353	 0.0177
3585.6990	 0.0177
3587.5627	 0.0176
3589.4263	 0.0174
3591.2900	 0.0171
3593.1537	 0.0172
3595.0173	 0.0175
3596.8810	 0.0166
3598.7447	 0.0157
3600.6084	 0.0159
3602.4720	 0.0163
3604.3357	 0.0154
3606.1994	 0.0152
3608.0630	 0.0163
3609.9267	 0.0157
3611.7904	 0.0142
3613.6540	 0.0138
3615.5177	 0.0143
3617.3814	 0.0148
3619.2450	 0.0144
3621.1087	 0.0141
3622.9724	 0.0136
3624.8360	 0.0135
3626.6997	 0.0138
3628.5634	 0.0143
3630.4271	 0.0129
3632.2907	 0.0120
3634.1544	 0.0124
3636.0181	 0.0122
3637.8817	 0.0117
3639.7454	 0.0116
3641.6091	 0.0115
3643.4727	 0.0115
3645.3364	 0.0117
3647.2001	 0.0124
3649.0637	 0.0128
3650.9274	 0.0121
3652.7911	 0.0112
3654.6547	 0.0109
3656.5184	 0.0106
3658.3821	 0.0105
3660.2458	 0.0102
3662.1094	 0.0101
3663.9731	 0.0102
3665.8368	 0.0104
3667.7004	 0.0109
3669.5641	 0.0113
3671.4278	 0.0111
3673.2914	 0.0107
3675.1551	 0.0110
3677.0188	 0.0105
3678.8824	 0.0097
3680.7461	 0.0092
3682.6098	 0.0094
3684.4735	 0.0096
3686.3371	 0.0100
3688.2008	 0.0103
3690.0645	 0.0105
3691.9281	 0.0103
3693.7918	 0.0095
3695.6555	 0.0095
3697.5191	 0.0092
3699.3828	 0.0088
3701.2465	 0.0090
3703.1101	 0.0096
3704.9738	 0.0094
3706.8375	 0.0093
3708.7011	 0.0096
3710.5648	 0.0101
3712.4285	 0.0105
3714.2922	 0.0104
3716.1558	 0.0101
3718.0195	 0.0097
3719.8832	 0.0095
3721.7468	 0.0096
3723.6105	 0.0100
3725.4742	 0.0099
3727.3378	 0.0091
3729.2015	 0.0094
3731.0652	 0.0097
3732.9288	 0.0100
3734.7925	 0.0112
3736.6562	 0.0112
3738.5199	 0.0102
3740.3835	 0.0094
3742.2472	 0.0095
3744.1109	 0.0106
3745.9745	 0.0105
3747.8382	 0.0104
3749.7019	 0.0100
3751.5655	 0.0102
3753.4292	 0.0101
3755.2929	 0.0100
3757.1565	 0.0101
3759.0202	 0.0097
3760.8839	 0.0098
3762.7475	 0.0101
3764.6112	 0.0099
3766.4749	 0.0100
3768.3386	 0.0104
3770.2022	 0.0100
3772.0659	 0.0096
3773.9296	 0.0091
3775.7932	 0.0085
3777.6569	 0.0088
3779.5206	 0.0092
3781.3842	 0.0092
3783.2479	 0.0096
3785.1116	 0.0099
3786.9752	 0.0096
3788.8389	 0.0097
3790.7026	 0.0101
3792.5662	 0.0101
3794.4299	 0.0099
3796.2936	 0.0101
3798.1573	 0.0102
3800.0209	 0.0103
3801.8846	 0.0104
3803.7483	 0.0101
3805.6119	 0.0103
3807.4756	 0.0103
3809.3393	 0.0101
3811.2029	 0.0101
3813.0666	 0.0099
3814.9303	 0.0100
3816.7939	 0.0100
3818.6576	 0.0102
3820.5213	 0.0106
3822.3850	 0.0110
3824.2486	 0.0104
3826.1123	 0.0094
3827.9760	 0.0094
3829.8396	 0.0099
3831.7033	 0.0098
3833.5670	 0.0100
3835.4306	 0.0107
3837.2943	 0.0112
3839.1580	 0.0109
3841.0216	 0.0102
3842.8853	 0.0099
3844.7490	 0.0101
3846.6126	 0.0105
3848.4763	 0.0105
3850.3400	 0.0107
3852.2037	 0.0110
3854.0673	 0.0109
3855.9310	 0.0108
3857.7947	 0.0100
3859.6583	 0.0099
3861.5220	 0.0104
3863.3857	 0.0111
3865.2493	 0.0111
3867.1130	 0.0103
3868.9767	 0.0102
3870.8403	 0.0108
3872.7040	 0.0115
3874.5677	 0.0108
3876.4314	 0.0102
3878.2950	 0.0102
3880.1587	 0.0110
3882.0224	 0.0112
3883.8860	 0.0102
3885.7497	 0.0100
3887.6134	 0.0104
3889.4770	 0.0105
3891.3407	 0.0101
3893.2044	 0.0099
3895.0680	 0.0102
3896.9317	 0.0108
3898.7954	 0.0111
3900.6590	 0.0107
3902.5227	 0.0110
3904.3864	 0.0111
3906.2501	 0.0104
3908.1137	 0.0101
3909.9774	 0.0098
3911.8411	 0.0096
3913.7047	 0.0099
3915.5684	 0.0104
3917.4321	 0.0105
3919.2957	 0.0103
3921.1594	 0.0103
3923.0231	 0.0105
3924.8867	 0.0108
3926.7504	 0.0106
3928.6141	 0.0104
3930.4777	 0.0105
3932.3414	 0.0109
3934.2051	 0.0108
3936.0688	 0.0101
3937.9324	 0.0099
3939.7961	 0.0102
3941.6598	 0.0104
3943.5234	 0.0104
3945.3871	 0.0105
3947.2508	 0.0105
3949.1144	 0.0106
3950.9781	 0.0104
3952.8418	 0.0098
3954.7054	 0.0100
3956.5691	 0.0107
3958.4328	 0.0108
3960.2965	 0.0106
3962.1601	 0.0105
3964.0238	 0.0104
3965.8875	 0.0103
3967.7511	 0.0104
3969.6148	 0.0105
3971.4785	 0.0102
3973.3421	 0.0098
3975.2058	 0.0101
3977.0695	 0.0107
3978.9331	 0.0106
3980.7968	 0.0104
3982.6605	 0.0104
3984.5241	 0.0104
3986.3878	 0.0106
3988.2515	 0.0105
3990.1152	 0.0108
3991.9788	 0.0107
3993.8425	 0.0104
3995.7062	 0.0101
3997.5698	 0.0100
3999.4335	 0.0101
Created at (UTC)=03/04/2024 08:56:29
SampleScans=64
BackgroundScans=64
From=4000
To=650
Resolution=4
Gain=220
Apodization=APOD_HAPPGENZEL
ZeroFillFactor=None
